{
  "entry": [
    {
      "fullUrl": "urn:uuid:00000000-0000-0000-0000-000000000000",
      "request": {
        "method": "POST",
        "url": "DiagnosticReport/0"
      },
      "resource": {
        "id": "12345",
        "code": {
          "coding": [
            {
              "code": "1487",
              "display": "ECHO CARDIOGRAM COMPLETE"
            }
          ],
          "text": "ECHO CARDIOGRAM COMPLETE"
        },
        "presentedForm": [
          {
            "contentType": "text/plain",
            "data": "UGF0aWVudCBoYWQgcG5ldW1vbmlhIGEgbW9udGggYWdvIGFuZCBoYXMgbm93IGJlZW4gZGlhZ25vc2VkIHdpdGggYSBteW9jYXJkaWFsIGluZmFyY3Rpb24uIFByZXNjcmliZWQgQWNlYnV0b2xvbC4="
          }
        ],
        "status": "final",
        "subject": {
          "reference": "Patient/1234567890"
        },
        "resourceType": "DiagnosticReport"
      }
    },
    {
      "fullUrl": "urn:uuid:00000000-0000-0000-0000-000000000001",
      "request": {
        "method": "POST",
        "url": "AllergyIntolerance/1"
      },
      "resource": {
        "id": "67890",
        "meta": {
          "extension": [
            {
              "extension": [
                {
                  "url": "http://ibm.com/fhir/cdm/StructureDefinition/insight-id",
                  "valueIdentifier": {
                    "system": "urn:alvearie.io/health_patterns/services/nlp_insights/acd",
                    "value": "344bef8f78daa3784a74321012834568e7cee48508e7dd7980bc20a0"
                  }
                },
                {
                  "url": "http://ibm.com/fhir/cdm/StructureDefinition/path",
                  "valueString": "AllergyIntolerance.code.coding"
                },
                {
                  "extension": [
                    {
                      "url": "http://ibm.com/fhir/cdm/StructureDefinition/reference",
                      "valueReference": {
                        "reference": "urn:uuid:00000000-0000-0000-0000-000000000001"
                      }
                    },
                    {
                      "url": "http://ibm.com/fhir/cdm/StructureDefinition/reference-path",
                      "valueString": "AllergyIntolerance.code.text"
                    },
                    {
                      "url": "http://ibm.com/fhir/cdm/StructureDefinition/evaluated-output",
                      "valueAttachment": {
                        "contentType": "application/json",
                        "data": ""
                      }
                    }
                  ],
                  "url": "http://ibm.com/fhir/cdm/StructureDefinition/insight-detail"
                }
              ],
              "url": "http://ibm.com/fhir/cdm/StructureDefinition/insight"
            }
          ]
        },
        "code": {
          "coding": [
            {
              "extension": [
                {
                  "extension": [
                    {
                      "url": "http://ibm.com/fhir/cdm/StructureDefinition/insight-id",
                      "valueIdentifier": {
                        "system": "urn:alvearie.io/health_patterns/services/nlp_insights/acd",
                        "value": "344bef8f78daa3784a74321012834568e7cee48508e7dd7980bc20a0"
                      }
                    },
                    {
                      "url": "http://ibm.com/fhir/cdm/StructureDefinition/category",
                      "valueCodeableConcept": {
                        "coding": [
                          {
                            "code": "natural-language-processing",
                            "display": "NLP",
                            "system": "http://ibm.com/fhir/cdm/CodeSystem/insight-category-code-system"
                          }
                        ],
                        "text": "NLP"
                      }
                    }
                  ],
                  "url": "http://ibm.com/fhir/cdm/StructureDefinition/insight-summary"
                }
              ],
              "code": "C0559470",
              "display": "allergy to peanut",
              "system": "http://terminology.hl7.org/CodeSystem/umls"
            },
            {
              "extension": [
                {
                  "extension": [
                    {
                      "url": "http://ibm.com/fhir/cdm/StructureDefinition/insight-id",
                      "valueIdentifier": {
                        "system": "urn:alvearie.io/health_patterns/services/nlp_insights/acd",
                        "value": "344bef8f78daa3784a74321012834568e7cee48508e7dd7980bc20a0"
                      }
                    },
                    {
                      "url": "http://ibm.com/fhir/cdm/StructureDefinition/category",
                      "valueCodeableConcept": {
                        "coding": [
                          {
                            "code": "natural-language-processing",
                            "display": "NLP",
                            "system": "http://ibm.com/fhir/cdm/CodeSystem/insight-category-code-system"
                          }
                        ],
                        "text": "NLP"
                      }
                    }
                  ],
                  "url": "http://ibm.com/fhir/cdm/StructureDefinition/insight-summary"
                }
              ],
              "code": "91935009",
              "system": "http://snomed.info/sct"
            },
            {
              "extension": [
                {
                  "extension": [
                    {
                      "url": "http://ibm.com/fhir/cdm/StructureDefinition/insight-id",
                      "valueIdentifier": {
                        "system": "urn:alvearie.io/health_patterns/services/nlp_insights/acd",
                        "value": "344bef8f78daa3784a74321012834568e7cee48508e7dd7980bc20a0"
                      }
                    },
                    {
                      "url": "http://ibm.com/fhir/cdm/StructureDefinition/category",
                      "valueCodeableConcept": {
                        "coding": [
                          {
                            "code": "natural-language-processing",
                            "display": "NLP",
                            "system": "http://ibm.com/fhir/cdm/CodeSystem/insight-category-code-system"
                          }
                        ],
                        "text": "NLP"
                      }
                    }
                  ],
                  "url": "http://ibm.com/fhir/cdm/StructureDefinition/insight-summary"
                }
              ],
              "code": "995.3",
              "system": "http://hl7.org/fhir/sid/icd-9-cm"
            },
            {
              "extension": [
                {
                  "extension": [
                    {
                      "url": "http://ibm.com/fhir/cdm/StructureDefinition/insight-id",
                      "valueIdentifier": {
                        "system": "urn:alvearie.io/health_patterns/services/nlp_insights/acd",
                        "value": "344bef8f78daa3784a74321012834568e7cee48508e7dd7980bc20a0"
                      }
                    },
                    {
                      "url": "http://ibm.com/fhir/cdm/StructureDefinition/category",
                      "valueCodeableConcept": {
                        "coding": [
                          {
                            "code": "natural-language-processing",
                            "display": "NLP",
                            "system": "http://ibm.com/fhir/cdm/CodeSystem/insight-category-code-system"
                          }
                        ],
                        "text": "NLP"
                      }
                    }
                  ],
                  "url": "http://ibm.com/fhir/cdm/StructureDefinition/insight-summary"
                }
              ],
              "code": "Z91.010",
              "system": "http://hl7.org/fhir/sid/icd-10-cm"
            },
            {
              "extension": [
                {
                  "extension": [
                    {
                      "url": "http://ibm.com/fhir/cdm/StructureDefinition/insight-id",
                      "valueIdentifier": {
                        "system": "urn:alvearie.io/health_patterns/services/nlp_insights/acd",
                        "value": "344bef8f78daa3784a74321012834568e7cee48508e7dd7980bc20a0"
                      }
                    },
                    {
                      "url": "http://ibm.com/fhir/cdm/StructureDefinition/category",
                      "valueCodeableConcept": {
                        "coding": [
                          {
                            "code": "natural-language-processing",
                            "display": "NLP",
                            "system": "http://ibm.com/fhir/cdm/CodeSystem/insight-category-code-system"
                          }
                        ],
                        "text": "NLP"
                      }
                    }
                  ],
                  "url": "http://ibm.com/fhir/cdm/StructureDefinition/insight-summary"
                }
              ],
              "code": "Z91.0",
              "system": "http://hl7.org/fhir/sid/icd-10-cm"
            }
          ],
          "text": "peanut"
        },
        "patient": {
          "reference": "Patient/1234567890"
        },
        "resourceType": "AllergyIntolerance"
      }
    },
    {
      "fullUrl": "urn:uuid:00000000-0000-0000-0000-000000000002",
      "request": {
        "method": "POST",
        "url": "Patient/2"
      },
      "resource": {
        "id": "1234567890",
        "name": [
          {
            "text": "Nick"
          }
        ],
        "resourceType": "Patient"
      }
    },
    {
      "request": {
        "method": "POST",
        "url": "Condition"
      },
      "resource": {
        "meta": {
          "extension": [
            {
              "extension": [
                {
                  "url": "http://ibm.com/fhir/cdm/StructureDefinition/insight-id",
                  "valueIdentifier": {
                    "system": "urn:alvearie.io/health_patterns/services/nlp_insights/quickumls",
                    "value": "77c568df5d0c33aac76f10f78da06808366386b5562cf379e9b09c02"
                  }
                },
                {
                  "url": "http://ibm.com/fhir/cdm/StructureDefinition/path",
                  "valueString": "Condition"
                },
                {
                  "extension": [
                    {
                      "url": "http://ibm.com/fhir/cdm/StructureDefinition/reference",
                      "valueReference": {
                        "reference": "urn:uuid:00000000-0000-0000-0000-000000000000"
                      }
                    },
                    {
                      "url": "http://ibm.com/fhir/cdm/StructureDefinition/reference-path",
                      "valueString": "DiagnosticReport.presentedForm[0].data"
                    },
                    {
                      "url": "http://ibm.com/fhir/cdm/StructureDefinition/evaluated-output",
                      "valueAttachment": {
                        "contentType": "application/json",
                        "data": ""
                      }
                    },
                    {
                      "extension": [
                        {
                          "extension": [
                            {
                              "url": "http://ibm.com/fhir/cdm/StructureDefinition/covered-text",
                              "valueString": "myocardial infarction"
                            },
                            {
                              "url": "http://ibm.com/fhir/cdm/StructureDefinition/offset-begin",
                              "valueInteger": 68
                            },
                            {
                              "url": "http://ibm.com/fhir/cdm/StructureDefinition/offset-end",
                              "valueInteger": 89
                            }
                          ],
                          "url": "http://ibm.com/fhir/cdm/StructureDefinition/span"
                        }
                      ],
                      "url": "http://ibm.com/fhir/cdm/StructureDefinition/insight-result"
                    }
                  ],
                  "url": "http://ibm.com/fhir/cdm/StructureDefinition/insight-detail"
                }
              ],
              "url": "http://ibm.com/fhir/cdm/StructureDefinition/insight"
            }
          ]
        },
        "extension": [
          {
            "extension": [
              {
                "url": "http://ibm.com/fhir/cdm/StructureDefinition/insight-id",
                "valueIdentifier": {
                  "system": "urn:alvearie.io/health_patterns/services/nlp_insights/quickumls",
                  "value": "77c568df5d0c33aac76f10f78da06808366386b5562cf379e9b09c02"
                }
              },
              {
                "url": "http://ibm.com/fhir/cdm/StructureDefinition/category",
                "valueCodeableConcept": {
                  "coding": [
                    {
                      "code": "natural-language-processing",
                      "display": "NLP",
                      "system": "http://ibm.com/fhir/cdm/CodeSystem/insight-category-code-system"
                    }
                  ],
                  "text": "NLP"
                }
              }
            ],
            "url": "http://ibm.com/fhir/cdm/StructureDefinition/insight-summary"
          }
        ],
        "code": {
          "coding": [
            {
              "code": "C0027051",
              "system": "http://terminology.hl7.org/CodeSystem/umls"
            }
          ],
          "text": "myocardial infarction"
        },
        "subject": {
          "reference": "Patient/1234567890"
        },
        "resourceType": "Condition"
      }
    },
    {
      "request": {
        "method": "POST",
        "url": "Condition"
      },
      "resource": {
        "meta": {
          "extension": [
            {
              "extension": [
                {
                  "url": "http://ibm.com/fhir/cdm/StructureDefinition/insight-id",
                  "valueIdentifier": {
                    "system": "urn:alvearie.io/health_patterns/services/nlp_insights/quickumls",
                    "value": "8327bbe89cd0dcdffc46a216bbf06389994db853da29bdcb11ab9e66"
                  }
                },
                {
                  "url": "http://ibm.com/fhir/cdm/StructureDefinition/path",
                  "valueString": "Condition"
                },
                {
                  "extension": [
                    {
                      "url": "http://ibm.com/fhir/cdm/StructureDefinition/reference",
                      "valueReference": {
                        "reference": "urn:uuid:00000000-0000-0000-0000-000000000000"
                      }
                    },
                    {
                      "url": "http://ibm.com/fhir/cdm/StructureDefinition/reference-path",
                      "valueString": "DiagnosticReport.presentedForm[0].data"
                    },
                    {
                      "url": "http://ibm.com/fhir/cdm/StructureDefinition/evaluated-output",
                      "valueAttachment": {
                        "contentType": "application/json",
                        "data": ""
                      }
                    },
                    {
                      "extension": [
                        {
                          "extension": [
                            {
                              "url": "http://ibm.com/fhir/cdm/StructureDefinition/covered-text",
                              "valueString": "pneumonia"
                            },
                            {
                              "url": "http://ibm.com/fhir/cdm/StructureDefinition/offset-begin",
                              "valueInteger": 12
                            },
                            {
                              "url": "http://ibm.com/fhir/cdm/StructureDefinition/offset-end",
                              "valueInteger": 21
                            }
                          ],
                          "url": "http://ibm.com/fhir/cdm/StructureDefinition/span"
                        }
                      ],
                      "url": "http://ibm.com/fhir/cdm/StructureDefinition/insight-result"
                    }
                  ],
                  "url": "http://ibm.com/fhir/cdm/StructureDefinition/insight-detail"
                }
              ],
              "url": "http://ibm.com/fhir/cdm/StructureDefinition/insight"
            }
          ]
        },
        "extension": [
          {
            "extension": [
              {
                "url": "http://ibm.com/fhir/cdm/StructureDefinition/insight-id",
                "valueIdentifier": {
                  "system": "urn:alvearie.io/health_patterns/services/nlp_insights/quickumls",
                  "value": "8327bbe89cd0dcdffc46a216bbf06389994db853da29bdcb11ab9e66"
                }
              },
              {
                "url": "http://ibm.com/fhir/cdm/StructureDefinition/category",
                "valueCodeableConcept": {
                  "coding": [
                    {
                      "code": "natural-language-processing",
                      "display": "NLP",
                      "system": "http://ibm.com/fhir/cdm/CodeSystem/insight-category-code-system"
                    }
                  ],
                  "text": "NLP"
                }
              }
            ],
            "url": "http://ibm.com/fhir/cdm/StructureDefinition/insight-summary"
          }
        ],
        "code": {
          "coding": [
            {
              "code": "C0032285",
              "system": "http://terminology.hl7.org/CodeSystem/umls"
            }
          ],
          "text": "pneumonia"
        },
        "subject": {
          "reference": "Patient/1234567890"
        },
        "resourceType": "Condition"
      }
    },
    {
      "request": {
        "method": "POST",
        "url": "MedicationStatement"
      },
      "resource": {
        "meta": {
          "extension": [
            {
              "extension": [
                {
                  "url": "http://ibm.com/fhir/cdm/StructureDefinition/insight-id",
                  "valueIdentifier": {
                    "system": "urn:alvearie.io/health_patterns/services/nlp_insights/quickumls",
                    "value": "94286d74e3377c3f1c73b8c9f43acd9cda97a2876603c3b89a694852"
                  }
                },
                {
                  "url": "http://ibm.com/fhir/cdm/StructureDefinition/path",
                  "valueString": "MedicationStatement"
                },
                {
                  "extension": [
                    {
                      "url": "http://ibm.com/fhir/cdm/StructureDefinition/reference",
                      "valueReference": {
                        "reference": "urn:uuid:00000000-0000-0000-0000-000000000000"
                      }
                    },
                    {
                      "url": "http://ibm.com/fhir/cdm/StructureDefinition/reference-path",
                      "valueString": "DiagnosticReport.presentedForm[0].data"
                    },
                    {
                      "url": "http://ibm.com/fhir/cdm/StructureDefinition/evaluated-output",
                      "valueAttachment": {
                        "contentType": "application/json",
                        "data": ""
                      }
                    },
                    {
                      "extension": [
                        {
                          "extension": [
                            {
                              "url": "http://ibm.com/fhir/cdm/StructureDefinition/covered-text",
                              "valueString": "Acebutolol"
                            },
                            {
                              "url": "http://ibm.com/fhir/cdm/StructureDefinition/offset-begin",
                              "valueInteger": 102
                            },
                            {
                              "url": "http://ibm.com/fhir/cdm/StructureDefinition/offset-end",
                              "valueInteger": 112
                            }
                          ],
                          "url": "http://ibm.com/fhir/cdm/StructureDefinition/span"
                        }
                      ],
                      "url": "http://ibm.com/fhir/cdm/StructureDefinition/insight-result"
                    }
                  ],
                  "url": "http://ibm.com/fhir/cdm/StructureDefinition/insight-detail"
                }
              ],
              "url": "http://ibm.com/fhir/cdm/StructureDefinition/insight"
            }
          ]
        },
        "extension": [
          {
            "extension": [
              {
                "url": "http://ibm.com/fhir/cdm/StructureDefinition/insight-id",
                "valueIdentifier": {
                  "system": "urn:alvearie.io/health_patterns/services/nlp_insights/quickumls",
                  "value": "94286d74e3377c3f1c73b8c9f43acd9cda97a2876603c3b89a694852"
                }
              },
              {
                "url": "http://ibm.com/fhir/cdm/StructureDefinition/category",
                "valueCodeableConcept": {
                  "coding": [
                    {
                      "code": "natural-language-processing",
                      "display": "NLP",
                      "system": "http://ibm.com/fhir/cdm/CodeSystem/insight-category-code-system"
                    }
                  ],
                  "text": "NLP"
                }
              }
            ],
            "url": "http://ibm.com/fhir/cdm/StructureDefinition/insight-summary"
          }
        ],
        "medicationCodeableConcept": {
          "coding": [
            {
              "code": "C0000946",
              "system": "http://terminology.hl7.org/CodeSystem/umls"
            }
          ],
          "text": "acebutolol"
        },
        "status": "unknown",
        "subject": {
          "reference": "Patient/1234567890"
        },
        "resourceType": "MedicationStatement"
      }
    }
  ],
  "type": "transaction",
  "resourceType": "Bundle"
}