{
  "entry": [
    {
      "fullUrl": "urn:uuid:00000000-0000-0000-0000-000000000000",
      "request": {
        "method": "POST",
        "url": "AllergyIntolerance/0"
      },
      "resource": {
        "id": "67890",
        "meta": {
          "extension": [
            {
              "extension": [
                {
                  "url": "http://ibm.com/fhir/cdm/StructureDefinition/insight-id",
                  "valueIdentifier": {
                    "system": "urn:alvearie.io/health_patterns/services/nlp_insights/acd",
                    "value": "954e8510494520ccf018fa037c7e5478477bc5b2654fbf7bb3d1caed"
                  }
                },
                {
                  "url": "http://ibm.com/fhir/cdm/StructureDefinition/path",
                  "valueString": "AllergyIntolerance.code.coding"
                },
                {
                  "extension": [
                    {
                      "url": "http://ibm.com/fhir/cdm/StructureDefinition/reference",
                      "valueReference": {
                        "reference": "urn:uuid:00000000-0000-0000-0000-000000000000"
                      }
                    },
                    {
                      "url": "http://ibm.com/fhir/cdm/StructureDefinition/reference-path",
                      "valueString": "AllergyIntolerance.code.text"
                    },
                    {
                      "url": "http://ibm.com/fhir/cdm/StructureDefinition/evaluated-output",
                      "valueAttachment": {
                        "contentType": "application/json",
                        "data": ""
                      }
                    }
                  ],
                  "url": "http://ibm.com/fhir/cdm/StructureDefinition/insight-detail"
                }
              ],
              "url": "http://ibm.com/fhir/cdm/StructureDefinition/insight"
            }
          ]
        },
        "code": {
          "coding": [
            {
              "extension": [
                {
                  "extension": [
                    {
                      "url": "http://ibm.com/fhir/cdm/StructureDefinition/insight-id",
                      "valueIdentifier": {
                        "system": "urn:alvearie.io/health_patterns/services/nlp_insights/acd",
                        "value": "954e8510494520ccf018fa037c7e5478477bc5b2654fbf7bb3d1caed"
                      }
                    },
                    {
                      "url": "http://ibm.com/fhir/cdm/StructureDefinition/category",
                      "valueCodeableConcept": {
                        "coding": [
                          {
                            "code": "natural-language-processing",
                            "display": "NLP",
                            "system": "http://ibm.com/fhir/cdm/CodeSystem/insight-category-code-system"
                          }
                        ],
                        "text": "NLP"
                      }
                    }
                  ],
                  "url": "http://ibm.com/fhir/cdm/StructureDefinition/insight-summary"
                }
              ],
              "code": "C0571417",
              "display": "allergy to amoxicillin",
              "system": "http://terminology.hl7.org/CodeSystem/umls"
            },
            {
              "extension": [
                {
                  "extension": [
                    {
                      "url": "http://ibm.com/fhir/cdm/StructureDefinition/insight-id",
                      "valueIdentifier": {
                        "system": "urn:alvearie.io/health_patterns/services/nlp_insights/acd",
                        "value": "954e8510494520ccf018fa037c7e5478477bc5b2654fbf7bb3d1caed"
                      }
                    },
                    {
                      "url": "http://ibm.com/fhir/cdm/StructureDefinition/category",
                      "valueCodeableConcept": {
                        "coding": [
                          {
                            "code": "natural-language-processing",
                            "display": "NLP",
                            "system": "http://ibm.com/fhir/cdm/CodeSystem/insight-category-code-system"
                          }
                        ],
                        "text": "NLP"
                      }
                    }
                  ],
                  "url": "http://ibm.com/fhir/cdm/StructureDefinition/insight-summary"
                }
              ],
              "code": "294505008",
              "system": "http://snomed.info/sct"
            },
            {
              "extension": [
                {
                  "extension": [
                    {
                      "url": "http://ibm.com/fhir/cdm/StructureDefinition/insight-id",
                      "valueIdentifier": {
                        "system": "urn:alvearie.io/health_patterns/services/nlp_insights/acd",
                        "value": "954e8510494520ccf018fa037c7e5478477bc5b2654fbf7bb3d1caed"
                      }
                    },
                    {
                      "url": "http://ibm.com/fhir/cdm/StructureDefinition/category",
                      "valueCodeableConcept": {
                        "coding": [
                          {
                            "code": "natural-language-processing",
                            "display": "NLP",
                            "system": "http://ibm.com/fhir/cdm/CodeSystem/insight-category-code-system"
                          }
                        ],
                        "text": "NLP"
                      }
                    }
                  ],
                  "url": "http://ibm.com/fhir/cdm/StructureDefinition/insight-summary"
                }
              ],
              "code": "E930.0",
              "system": "http://hl7.org/fhir/sid/icd-9-cm"
            },
            {
              "extension": [
                {
                  "extension": [
                    {
                      "url": "http://ibm.com/fhir/cdm/StructureDefinition/insight-id",
                      "valueIdentifier": {
                        "system": "urn:alvearie.io/health_patterns/services/nlp_insights/acd",
                        "value": "954e8510494520ccf018fa037c7e5478477bc5b2654fbf7bb3d1caed"
                      }
                    },
                    {
                      "url": "http://ibm.com/fhir/cdm/StructureDefinition/category",
                      "valueCodeableConcept": {
                        "coding": [
                          {
                            "code": "natural-language-processing",
                            "display": "NLP",
                            "system": "http://ibm.com/fhir/cdm/CodeSystem/insight-category-code-system"
                          }
                        ],
                        "text": "NLP"
                      }
                    }
                  ],
                  "url": "http://ibm.com/fhir/cdm/StructureDefinition/insight-summary"
                }
              ],
              "code": "995.27",
              "system": "http://hl7.org/fhir/sid/icd-9-cm"
            },
            {
              "extension": [
                {
                  "extension": [
                    {
                      "url": "http://ibm.com/fhir/cdm/StructureDefinition/insight-id",
                      "valueIdentifier": {
                        "system": "urn:alvearie.io/health_patterns/services/nlp_insights/acd",
                        "value": "954e8510494520ccf018fa037c7e5478477bc5b2654fbf7bb3d1caed"
                      }
                    },
                    {
                      "url": "http://ibm.com/fhir/cdm/StructureDefinition/category",
                      "valueCodeableConcept": {
                        "coding": [
                          {
                            "code": "natural-language-processing",
                            "display": "NLP",
                            "system": "http://ibm.com/fhir/cdm/CodeSystem/insight-category-code-system"
                          }
                        ],
                        "text": "NLP"
                      }
                    }
                  ],
                  "url": "http://ibm.com/fhir/cdm/StructureDefinition/insight-summary"
                }
              ],
              "code": "Z88.0",
              "system": "http://hl7.org/fhir/sid/icd-10-cm"
            }
          ],
          "text": "amoxicillin"
        },
        "patient": {
          "reference": "Patient/1234567890"
        },
        "resourceType": "AllergyIntolerance"
      }
    },
    {
      "fullUrl": "urn:uuid:00000000-0000-0000-0000-000000000001",
      "request": {
        "method": "POST",
        "url": "AllergyIntolerance/1"
      },
      "resource": {
        "id": "67890",
        "meta": {
          "extension": [
            {
              "extension": [
                {
                  "url": "http://ibm.com/fhir/cdm/StructureDefinition/insight-id",
                  "valueIdentifier": {
                    "system": "urn:alvearie.io/health_patterns/services/nlp_insights/acd",
                    "value": "344bef8f78daa3784a74321012834568e7cee48508e7dd7980bc20a0"
                  }
                },
                {
                  "url": "http://ibm.com/fhir/cdm/StructureDefinition/path",
                  "valueString": "AllergyIntolerance.code.coding"
                },
                {
                  "extension": [
                    {
                      "url": "http://ibm.com/fhir/cdm/StructureDefinition/reference",
                      "valueReference": {
                        "reference": "urn:uuid:00000000-0000-0000-0000-000000000001"
                      }
                    },
                    {
                      "url": "http://ibm.com/fhir/cdm/StructureDefinition/reference-path",
                      "valueString": "AllergyIntolerance.code.text"
                    },
                    {
                      "url": "http://ibm.com/fhir/cdm/StructureDefinition/evaluated-output",
                      "valueAttachment": {
                        "contentType": "application/json",
                        "data": ""
                      }
                    }
                  ],
                  "url": "http://ibm.com/fhir/cdm/StructureDefinition/insight-detail"
                }
              ],
              "url": "http://ibm.com/fhir/cdm/StructureDefinition/insight"
            }
          ]
        },
        "code": {
          "coding": [
            {
              "extension": [
                {
                  "extension": [
                    {
                      "url": "http://ibm.com/fhir/cdm/StructureDefinition/insight-id",
                      "valueIdentifier": {
                        "system": "urn:alvearie.io/health_patterns/services/nlp_insights/acd",
                        "value": "344bef8f78daa3784a74321012834568e7cee48508e7dd7980bc20a0"
                      }
                    },
                    {
                      "url": "http://ibm.com/fhir/cdm/StructureDefinition/category",
                      "valueCodeableConcept": {
                        "coding": [
                          {
                            "code": "natural-language-processing",
                            "display": "NLP",
                            "system": "http://ibm.com/fhir/cdm/CodeSystem/insight-category-code-system"
                          }
                        ],
                        "text": "NLP"
                      }
                    }
                  ],
                  "url": "http://ibm.com/fhir/cdm/StructureDefinition/insight-summary"
                }
              ],
              "code": "C0559470",
              "display": "allergy to peanut",
              "system": "http://terminology.hl7.org/CodeSystem/umls"
            },
            {
              "extension": [
                {
                  "extension": [
                    {
                      "url": "http://ibm.com/fhir/cdm/StructureDefinition/insight-id",
                      "valueIdentifier": {
                        "system": "urn:alvearie.io/health_patterns/services/nlp_insights/acd",
                        "value": "344bef8f78daa3784a74321012834568e7cee48508e7dd7980bc20a0"
                      }
                    },
                    {
                      "url": "http://ibm.com/fhir/cdm/StructureDefinition/category",
                      "valueCodeableConcept": {
                        "coding": [
                          {
                            "code": "natural-language-processing",
                            "display": "NLP",
                            "system": "http://ibm.com/fhir/cdm/CodeSystem/insight-category-code-system"
                          }
                        ],
                        "text": "NLP"
                      }
                    }
                  ],
                  "url": "http://ibm.com/fhir/cdm/StructureDefinition/insight-summary"
                }
              ],
              "code": "91935009",
              "system": "http://snomed.info/sct"
            },
            {
              "extension": [
                {
                  "extension": [
                    {
                      "url": "http://ibm.com/fhir/cdm/StructureDefinition/insight-id",
                      "valueIdentifier": {
                        "system": "urn:alvearie.io/health_patterns/services/nlp_insights/acd",
                        "value": "344bef8f78daa3784a74321012834568e7cee48508e7dd7980bc20a0"
                      }
                    },
                    {
                      "url": "http://ibm.com/fhir/cdm/StructureDefinition/category",
                      "valueCodeableConcept": {
                        "coding": [
                          {
                            "code": "natural-language-processing",
                            "display": "NLP",
                            "system": "http://ibm.com/fhir/cdm/CodeSystem/insight-category-code-system"
                          }
                        ],
                        "text": "NLP"
                      }
                    }
                  ],
                  "url": "http://ibm.com/fhir/cdm/StructureDefinition/insight-summary"
                }
              ],
              "code": "995.3",
              "system": "http://hl7.org/fhir/sid/icd-9-cm"
            },
            {
              "extension": [
                {
                  "extension": [
                    {
                      "url": "http://ibm.com/fhir/cdm/StructureDefinition/insight-id",
                      "valueIdentifier": {
                        "system": "urn:alvearie.io/health_patterns/services/nlp_insights/acd",
                        "value": "344bef8f78daa3784a74321012834568e7cee48508e7dd7980bc20a0"
                      }
                    },
                    {
                      "url": "http://ibm.com/fhir/cdm/StructureDefinition/category",
                      "valueCodeableConcept": {
                        "coding": [
                          {
                            "code": "natural-language-processing",
                            "display": "NLP",
                            "system": "http://ibm.com/fhir/cdm/CodeSystem/insight-category-code-system"
                          }
                        ],
                        "text": "NLP"
                      }
                    }
                  ],
                  "url": "http://ibm.com/fhir/cdm/StructureDefinition/insight-summary"
                }
              ],
              "code": "Z91.010",
              "system": "http://hl7.org/fhir/sid/icd-10-cm"
            },
            {
              "extension": [
                {
                  "extension": [
                    {
                      "url": "http://ibm.com/fhir/cdm/StructureDefinition/insight-id",
                      "valueIdentifier": {
                        "system": "urn:alvearie.io/health_patterns/services/nlp_insights/acd",
                        "value": "344bef8f78daa3784a74321012834568e7cee48508e7dd7980bc20a0"
                      }
                    },
                    {
                      "url": "http://ibm.com/fhir/cdm/StructureDefinition/category",
                      "valueCodeableConcept": {
                        "coding": [
                          {
                            "code": "natural-language-processing",
                            "display": "NLP",
                            "system": "http://ibm.com/fhir/cdm/CodeSystem/insight-category-code-system"
                          }
                        ],
                        "text": "NLP"
                      }
                    }
                  ],
                  "url": "http://ibm.com/fhir/cdm/StructureDefinition/insight-summary"
                }
              ],
              "code": "Z91.0",
              "system": "http://hl7.org/fhir/sid/icd-10-cm"
            }
          ],
          "text": "peanut"
        },
        "patient": {
          "reference": "Patient/1234567890"
        },
        "resourceType": "AllergyIntolerance"
      }
    }
  ],
  "type": "transaction",
  "resourceType": "Bundle"
}